[{"rt":1065,"stimulus":"<p   class=\"p2-grid\">您好！我们是上海交通大学研究团队和云南一所心理矫治中心研究团队。<br>\n        本项目致力于对成瘾机制的研究，我们诚邀您的参加！<br>\n        您需要在电脑前根据真实情况，认真填写问卷。<br>\n        我们承诺您的所有数据仅用于科学研究，数据会严格保密，仅限于本项目科研使用。<br>\n        感谢您为本研究项目做出的贡献！</p> ","response":0,"trial_type":"html-button-response","trial_index":0,"time_elapsed":1080,"internal_node_id":"0.0-0.0"},{"rt":21087,"response":{"name":"name","P0_Q1":"1","P0_Q2":"男","P0_Q3":"1","P0_Q4":"初中及以下","P0_Q5":"是","P0_Q6":"未婚","P0_Q7":"未婚","P0_Q8":"是","P0_Q9":["冰毒"],"P0_Q10":["注射"],"P0_Q11":"1","P0_Q12":"1","P0_Q13":"否","P0_Q14":"主动戒断","P0_Q15":["拒毒训练"]},"accuracy":[],"trial_type":"survey","trial_index":1,"time_elapsed":22243,"internal_node_id":"0.0-1.0"},{"rt":19588,"response":{"BF1":{"1":0,"2":0,"3":0,"4":0,"5":0,"6":0,"7":0,"8":0,"9":0,"10":0,"11":0,"12":0,"13":0,"14":0,"15":0,"16":0,"17":0,"18":0,"19":0,"20":0},"BF2":{"21":5,"22":0,"23":0,"24":0,"25":0,"26":0,"27":0,"28":0,"29":0,"30":0,"31":0,"32":0,"33":0,"34":0,"35":0,"36":0,"37":0,"38":0,"39":0,"40":0}},"accuracy":[],"trial_type":"survey","trial_index":2,"time_elapsed":41846,"internal_node_id":"0.0-2.0"},{"rt":8129,"response":{"RISC":{"1":0,"2":0,"3":0,"4":0,"5":0,"6":0,"7":0,"8":0,"9":0,"10":0,"11":0,"12":0,"13":0,"14":0,"15":0,"16":0,"17":0,"18":0,"19":0,"20":0,"21":0,"22":0,"23":0,"24":0,"25":0}},"accuracy":[],"trial_type":"survey","trial_index":3,"time_elapsed":49983,"internal_node_id":"0.0-3.0"},{"rt":7017,"response":{"craving":{"1":5,"2":0,"3":0,"4":0,"5":0,"6":0,"7":0,"8":0,"9":0,"10":0,"11":0,"12":0,"13":0,"14":0,"15":0},"day":"1"},"accuracy":[],"trial_type":"survey","trial_index":4,"time_elapsed":57013,"internal_node_id":"0.0-4.0"},{"rt":9456,"response":{"1":0,"2":0,"3":0,"4":0,"5":0,"6":0,"7":0,"8":0,"9":0,"10":0,"11":0,"12":0,"13":0,"14":0,"15":0,"16":0,"17":0,"18":0,"19":0,"20":0,"21":0,"22":0,"23":0,"24":0,"25":0},"question_order":[0,1,2,3,4,5,6,7,8,9,10,11,12,13,14,15,16,17,18,19,20,21,22,23,24],"trial_type":"survey-likert","trial_index":5,"time_elapsed":66479,"internal_node_id":"0.0-5.0"},{"rt":8190,"response":{"1":0,"2":0,"3":0,"4":0,"5":0,"6":0,"7":0,"8":0,"9":0,"10":0,"11":0,"12":0,"13":0,"14":0,"15":0,"16":0,"17":0,"18":0,"19":0,"20":0,"21":0,"22":0,"23":0,"24":0,"25":0},"question_order":[0,1,2,3,4,5,6,7,8,9,10,11,12,13,14,15,16,17,18,19,20,21,22,23,24],"trial_type":"survey-likert","trial_index":6,"time_elapsed":74673,"internal_node_id":"0.0-6.0"},{"rt":11862,"response":{"ACE1":{"1":4,"2":0,"3":0,"4":0},"ACE2":{"1":0,"2":0,"3":0,"4":0,"5":0,"6":0,"7":0,"8":0,"9":0,"10":0,"11":0,"12":0,"13":0,"14":0,"15":0,"16":0,"17":0,"18":0,"19":0,"20":0,"21":0,"22":0,"23":0}},"accuracy":[],"trial_type":"survey","trial_index":7,"time_elapsed":86550,"internal_node_id":"0.0-7.0"},{"rt":9863,"response":{"TAS":{"1":0,"2":0,"3":0,"4":0,"5":0,"6":0,"7":0,"8":0,"9":0,"10":0,"11":0,"12":0,"13":0,"14":0,"15":0,"16":0,"17":0,"18":0,"19":0,"20":0}},"accuracy":[],"trial_type":"survey","trial_index":8,"time_elapsed":96423,"internal_node_id":"0.0-8.0"},{"rt":6352,"response":{"AAS":{"1":0,"2":0,"3":0,"4":0,"5":0,"6":0,"7":0,"8":0,"9":0,"10":0,"11":0,"12":0,"13":0,"14":0,"15":0,"16":0,"17":0,"18":0,"19":0,"20":0}},"accuracy":[],"trial_type":"survey","trial_index":9,"time_elapsed":102788,"internal_node_id":"0.0-9.0"},{"rt":8436,"response":{"SPS":{"1":4,"2":0,"3":0,"4":0,"5":0,"6":0,"7":0,"8":0,"9":0,"10":0,"11":0,"12":0,"13":0,"14":0,"15":0,"16":0,"17":0,"18":0,"19":0,"20":0,"21":0,"22":0,"23":0}},"accuracy":[],"trial_type":"survey","trial_index":10,"time_elapsed":111236,"internal_node_id":"0.0-10.0"},{"rt":7446,"response":{"RESS":{"1":0,"2":0,"3":0,"4":0,"5":0,"6":0,"7":0,"8":0,"9":0,"10":0,"11":0,"12":0}},"accuracy":[],"trial_type":"survey","trial_index":11,"time_elapsed":118694,"internal_node_id":"0.0-11.0"},{"rt":2872,"response":{"CES_D":{"1":0,"2":0,"3":0,"4":0,"5":0,"6":0,"7":0,"8":0,"9":0}},"accuracy":[],"trial_type":"survey","trial_index":12,"time_elapsed":121571,"internal_node_id":"0.0-12.0"},{"rt":2731,"response":{"GAD":{"1":0,"2":0,"3":0,"4":0,"5":0,"6":0,"7":0}},"accuracy":[],"trial_type":"survey","trial_index":13,"time_elapsed":124313,"internal_node_id":"0.0-13.0"}]